Folder: VAPP

Note: README.md
# VAPP
This data pertains to the filament characterisation of alumina filaments used in the fused filament fabrication technique. Also, it has mechanical testing data of samples prepared using the same material and technique. 
Files and variables

File: FTIR-_Raw_Data.csv

Description: This is FTIR Analysis data

Variables

4000:

96.47:

File: XRD-Raw_Data.csv

Description: This has Intensity vs 2theta values obtained from XRD

Variables

2theta in degrees:

after debinding and sintering:

normalized:

File: Density-ASTM_C20.xlsx

Description: This has sub measurement such as soaked weight, submerged weight, etc. which were used to measure density

Variables

Temperature

File: Bending_Strength_Comparision.xlsx

Description: It has bending strength data of samples tested both perpendicular and parallel to printing direction. 

Variables

Sintering Temperature

Printing Direction

File: Bending_Test_Comparision_Plots-Literature.xlsx

Description: It has data for all the literature data and present work data comparison. Here we compared porosity with the bending strength

Variables

Porosity

Bending Strength

File: Characteristic_Strength.xlsx

Description: It has characteristic strength values of all the samples sintered at different temperatures but tested parallel to print direction.

Variables

Sintering Temperature

Characteristic Bending Strength

File: Compression_Strength_Comparision.xlsx

Description: It has data of samples tested for compression strength studies and tested perpendicular and parallel to print direction.

Variables

Print Direction

Compressive Strength

File: Cost_Analysis.xlsx

Description: It has data of cost and time required to print samples as per the ASTM geometry and Our standards

Variables

Geometry Type

Cost

Time

File: Mechanical_Testing_Comparision.xlsx

Description: It has data of all mechanical properties comparison with respect to sintering temperature

Variables

Sintering Temperature

Compressive Strength

Bending Strength

Vickers Hardness

Loading Direction

File: Triangle_area.xlsx

Description: It has data of area of triangular pores when compared to different sintering temperatures. 

Variables

Triangular Pores Area

Sintering Temperature

File: Mechanical_Plot_Comparision.xlsx

Description: It has data to compare different mechanical testing comparison of theoretical models

Variables

Theoritical Models

Mechanical Strnegths

Code/software

Excel

Access information

Other publicly accessible locations of the data:

NA

Data was derived from the following sources:

NA

File: XRD-Raw Data.csv
2theta in degrees,after debinding and sintering,normalized
10,1203.519,52.86849
10.28,1247.467,54.79905
10.56,1354.42,59.49731
10.84,1478.174,64.93361
11.12,1496.18,65.72458
11.4,1617.491,71.05356
11.68,1714.119,75.29826
11.96,1752.048,76.96442
12.24,1726.97,75.86278
12.52,1835.854,80.64587
12.8,1776.104,78.02115
13.08,1834.59,80.59034
13.36,1773.956,77.9268
13.64,1745.126,76.66035
13.92,1723.738,75.72081
14.2,1681.757,73.87666
14.48,1710.663,75.14645
14.76,1557.904,68.43601
15.04,1508.469,66.26442
15.32,1583.657,69.56729
15.6,1497.067,65.76355
15.88,1450.387,63.71297
16.16,1367.862,60.0878
16.44,1316.16,57.81662
16.72,1378.708,60.56424
17,1278.559,56.16487
17.28,1242.318,54.57287
17.56,1218.138,53.51068
17.84,1164.074,51.13574
18.12,1196.994,52.58186
18.4,1118.009,49.11219
18.68,1126.656,49.49204
18.96,1071.214,47.05657
19.24,1012.952,44.49722
19.52,1019.873,44.80124
19.8,1002.792,44.05091
20.08,980.708,43.08079
20.36,975.177,42.83783
20.64,942.403,41.39812
20.92,891.607,39.16674
21.2,920.068,40.41698
21.48,870.107,38.22228
21.76,887.537,38.98795
22.04,905.421,39.77357
22.32,828.393,36.38986
22.6,835.979,36.7231
22.88,721.475,31.69314
23.16,716.852,31.49006
23.44,688.543,30.24649
23.72,637.043,27.98419
24,618.204,27.15662
24.28,600.075,26.36025
24.56,595.873,26.17566
24.84,575.184,25.26683
25.12,544,23.89697
25.4,578.12,25.3958
25.68,1987.441,87.30482
25.96,524.278,23.03062
26.24,480.872,21.12387
26.52,444.831,19.54065
26.8,407.591,17.90476
27.08,381.719,16.76825
27.36,346.475,15.22004
27.64,355.399,15.61206
27.92,298.968,13.13314
28.2,322.145,14.15127
28.48,258.923,11.37404
28.76,261.429,11.48412
29.04,247.723,10.88204
29.32,252.399,11.08745
29.6,186.099,8.175
29.88,199.054,8.7441
30.16,182.745,8.02767
30.44,168.95,7.42168
30.72,158.095,6.94484
31,153.718,6.75256
31.28,140.601,6.17636
31.56,138.988,6.1055
31.84,104.938,4.60974
32.12,113.161,4.97097
32.4,104.637,4.59652
32.68,81.296,3.57119
32.96,93.764,4.11889
33.24,88.273,3.87768
33.52,81.402,3.57585
33.8,85.29,3.74664
34.08,98.117,4.31011
34.36,80.951,3.55604
34.64,83.774,3.68005
34.92,102.843,4.51771
35.2,704.688,30.95572
35.48,182.6,8.0213
35.76,89.879,3.94823
36.04,69.257,3.04234
36.32,72.285,3.17535
36.6,73.399,3.22429
36.88,80.311,3.52792
37.16,65.45,2.8751
37.44,72.054,3.16521
37.72,111.179,4.8839
38,480.13,21.09127
38.28,68.712,3.0184
38.56,71.412,3.137
38.84,76.354,3.3541
39.12,95.788,4.2078
39.4,60.925,2.67633
39.68,83.681,3.67596
39.96,63.629,2.79511
40.24,69.112,3.03597
40.52,57.801,2.5391
40.8,66.786,2.93379
41.08,68.07,2.9902
41.36,71.246,3.12971
41.64,56.818,2.49592
41.92,66.151,2.9059
42.2,58.219,2.55746
42.48,59.493,2.61342
42.76,70.115,3.08003
43.04,73.016,3.20747
43.32,215.503,9.46667
43.6,922.993,40.54547
43.88,78.323,3.44059
44.16,63.899,2.80697
44.44,46.673,2.05026
44.72,52.538,2.3079
45,58.49,2.56936
45.28,57.722,2.53563
45.56,55.182,2.42405
45.84,52.457,2.30434
46.12,58.191,2.55623
46.4,65.672,2.88486
46.68,50.168,2.20379
46.96,52.689,2.31454
47.24,61.424,2.69825
47.52,44.609,1.9596
47.8,45.329,1.99122
48.08,47.484,2.08589
48.36,46.057,2.0232
48.64,39.451,1.73301
48.92,52.368,2.30044
49.2,46.731,2.05281
49.48,47.022,2.06559
49.76,43.47,1.90956
50.04,39.616,1.74026
50.32,51.823,2.27649
50.6,50.793,2.23125
50.88,39.01,1.71364
51.16,43.349,1.90425
51.44,52.546,2.30825
51.72,40.793,1.79197
52,49.607,2.17915
52.28,52.342,2.29929
52.56,178.248,7.83012
52.84,322.67,14.17433
53.12,59.378,2.60837
53.4,45.394,1.99408
53.68,45.383,1.9936
53.96,44.169,1.94027
54.24,46.358,2.03643
54.52,41.012,1.80159
54.8,40.67,1.78656
55.08,42.981,1.88808
55.36,39.314,1.727
55.64,49.845,2.1896
55.92,45.106,1.98143
56.2,43.897,1.92832
56.48,52.317,2.29819
56.76,47.733,2.09683
57.04,46.478,2.0417
57.32,89.303,3.92293
57.6,1693.517,74.39325
57.88,152.196,6.68571
58.16,52.131,2.29002
58.44,41.408,1.81898
58.72,50.669,2.2258
59,52.302,2.29754
59.28,44.469,1.95345
59.56,52.925,2.3249
59.84,88.756,3.8989
60.12,44.639,1.96091
60.4,46.682,2.05066
60.68,45.047,1.97884
60.96,47.926,2.10531
61.24,102.51,4.50309
61.52,68.409,3.00509
61.8,31.371,1.37807
62.08,32.938,1.44691
62.36,35.029,1.53876
62.64,51.921,2.2808
62.92,37.774,1.65935
63.2,35.556,1.56191
63.48,39.663,1.74233
63.76,31.036,1.36336
64.04,38.768,1.70301
64.32,27.238,1.19652
64.6,30.762,1.35132
64.88,44.475,1.95371
65.16,47.138,2.07069
65.44,33.493,1.47129
65.72,42.191,1.85338
66,39.217,1.72273
66.28,39.018,1.71399
66.56,231.323,10.16162
66.84,257.776,11.32365
67.12,42.783,1.87938
67.4,36.735,1.6137
67.68,36.003,1.58155
67.96,60.579,2.66113
68.24,296.885,13.04164
68.52,399.713,17.5587
68.8,43.733,1.92111
69.08,34.365,1.50959
69.36,35.693,1.56793
69.64,31.116,1.36687
69.92,35.349,1.55282
70.2,34.774,1.52756
70.48,35.008,1.53784
70.76,34.149,1.50011
71.04,27.633,1.21387
71.32,21.692,0.95289
71.6,39.108,1.71795
71.88,29.095,1.27809
72.16,30.587,1.34363
72.44,34.414,1.51175
72.72,33.247,1.46048
73,31.63,1.38945
73.28,28.748,1.26285
73.56,31.889,1.40083
73.84,36.636,1.60936
74.12,31.172,1.36933
74.4,53.804,2.36352
74.68,39.202,1.72208
74.96,34.528,1.51675
75.24,30.803,1.35312
75.52,31.63,1.38945
75.8,40.823,1.79328
76.08,36.792,1.61621
76.36,28.864,1.26795
76.64,44.784,1.96728
76.92,122.813,5.39496
77.2,175.006,7.68771
77.48,61.784,2.71406
77.76,33.513,1.47217
78.04,32.013,1.40628
78.32,36.185,1.58954
78.6,32.85,1.44304
78.88,36.826,1.6177
79.16,42.455,1.86497
79.44,29.754,1.30704
79.72,42.289,1.85768
80,31.246,1.37258
80.28,35.905,1.57724
80.56,47.818,2.10056
80.84,91.66,4.02646
81.12,53.595,2.35433
81.4,44.493,1.9545
81.68,38.652,1.69792
81.96,38.001,1.66932
82.24,30.398,1.33533
82.52,33.82,1.48565
82.8,38.506,1.6915
83.08,43.768,1.92265
83.36,40.679,1.78696
83.64,25.497,1.12004
83.92,38.889,1.70833
84.2,37.431,1.64428
84.48,88.611,3.89253
84.76,55.735,2.44834
85.04,42.085,1.84872
85.32,45.134,1.98266
85.6,31.332,1.37636
85.88,37.703,1.65623
86.16,44.09,1.9368
86.44,79.111,3.47521
86.72,63.607,2.79414
87,28.457,1.25007
87.28,34.316,1.50744
87.56,36.801,1.6166
87.84,47.191,2.07302
88.12,42.068,1.84797
88.4,36.33,1.59591
88.68,35.555,1.56187
88.96,47.403,2.08233
89.24,66.346,2.91446
89.52,51.416,2.25862
89.8,37.552,1.64959
89.96,48.964,2.1509